{
  "resourceType": "Bundle",
  "id": "tests-CMS68-patient-3-bundle",
  "type": "transaction",
  "entry": [ {
    "resource": {
      "resourceType": "MeasureReport",
      "id": "measurereport-CMS68-patient-3",
      "contained": [ {
        "resourceType": "Observation",
        "id": "72716bd6-4fb6-4bfb-aad1-b21baac00149",
        "extension": [ {
          "url": "http://hl7.org/fhir/StructureDefinition/cqf-measureInfo",
          "extension": [ {
            "url": "measure",
            "valueCanonical": "http://content.alphora.com/fhir/dqm/Measure/CMS68"
          }, {
            "url": "populationId",
            "valueString": "sde-race"
          } ]
        } ],
        "status": "final",
        "code": {
          "text": "sde-race"
        },
        "valueCodeableConcept": {
          "coding": [ {
            "system": "http://terminology.hl7.org/CodeSystem/PHRaceAndEthnicityCDC",
            "code": "2106-3",
            "display": "White"
          } ]
        }
      }, {
        "resourceType": "Observation",
        "id": "60e41aa4-be4f-4b6c-a2d2-d68f6b92981e",
        "extension": [ {
          "url": "http://hl7.org/fhir/StructureDefinition/cqf-measureInfo",
          "extension": [ {
            "url": "measure",
            "valueCanonical": "http://content.alphora.com/fhir/dqm/Measure/CMS68"
          }, {
            "url": "populationId",
            "valueString": "sde-payer"
          } ]
        } ],
        "status": "final",
        "code": {
          "text": "sde-payer"
        },
        "valueCodeableConcept": {
          "coding": [ {
            "system": "https://nahdo.org/sopt",
            "code": "3113",
            "display": "TRICARE Standard - Fee For Service"
          } ]
        }
      }, {
        "resourceType": "Observation",
        "id": "f289d7f3-953e-414c-a0c9-bcd411f6eebf",
        "extension": [ {
          "url": "http://hl7.org/fhir/StructureDefinition/cqf-measureInfo",
          "extension": [ {
            "url": "measure",
            "valueCanonical": "http://content.alphora.com/fhir/dqm/Measure/CMS68"
          }, {
            "url": "populationId",
            "valueString": "sde-ethnicity"
          } ]
        } ],
        "status": "final",
        "code": {
          "text": "sde-ethnicity"
        },
        "valueCodeableConcept": {
          "coding": [ {
            "system": "http://terminology.hl7.org/CodeSystem/PHRaceAndEthnicityCDC",
            "code": "2135-2",
            "display": "Hispanic or Latino"
          } ]
        }
      }, {
        "resourceType": "Observation",
        "id": "361e2b64-e663-4aa8-bf74-f61b00eca96f",
        "extension": [ {
          "url": "http://hl7.org/fhir/StructureDefinition/cqf-measureInfo",
          "extension": [ {
            "url": "measure",
            "valueCanonical": "http://content.alphora.com/fhir/dqm/Measure/CMS68"
          }, {
            "url": "populationId",
            "valueString": "sde-sex"
          } ]
        } ],
        "status": "final",
        "code": {
          "text": "sde-sex"
        },
        "valueCodeableConcept": {
          "coding": [ {
            "code": "F"
          } ]
        }
      } ],
      "status": "complete",
      "type": "individual",
      "measure": "http://content.alphora.com/fhir/dqm/Measure/CMS68",
      "subject": {
        "reference": "Patient/CMS68-patient-3"
      },
      "period": {
        "start": "2020-01-01T00:00:00-07:00",
        "end": "2020-12-31T00:00:00-07:00"
      },
      "group": [ {
        "id": "group-1",
        "population": [ {
          "code": {
            "coding": [ {
              "system": "http://terminology.hl7.org/CodeSystem/measure-population",
              "code": "initial-population",
              "display": "Initial Population"
            } ]
          },
          "count": 1
        }, {
          "code": {
            "coding": [ {
              "system": "http://terminology.hl7.org/CodeSystem/measure-population",
              "code": "numerator",
              "display": "Numerator"
            } ]
          },
          "count": 1
        }, {
          "code": {
            "coding": [ {
              "system": "http://terminology.hl7.org/CodeSystem/measure-population",
              "code": "denominator",
              "display": "Denominator"
            } ]
          },
          "count": 1
        }, {
          "code": {
            "coding": [ {
              "system": "http://terminology.hl7.org/CodeSystem/measure-population",
              "code": "denominator-exception",
              "display": "Denominator Exception"
            } ]
          },
          "count": 0
        } ],
        "measureScore": {
          "value": 1.0
        }
      } ],
      "evaluatedResource": [ {
        "reference": "#72716bd6-4fb6-4bfb-aad1-b21baac00149"
      }, {
        "reference": "#60e41aa4-be4f-4b6c-a2d2-d68f6b92981e"
      }, {
        "reference": "#f289d7f3-953e-414c-a0c9-bcd411f6eebf"
      }, {
        "reference": "#361e2b64-e663-4aa8-bf74-f61b00eca96f"
      }, {
        "extension": [ {
          "url": "http://hl7.org/fhir/us/davinci-deqm/StructureDefinition/extension-populationReference",
          "valueString": "initial-population"
        }, {
          "url": "http://hl7.org/fhir/us/davinci-deqm/StructureDefinition/extension-populationReference",
          "valueString": "denominator"
        } ],
        "reference": "Patient/CMS68-patient-3"
      }, {
        "extension": [ {
          "url": "http://hl7.org/fhir/us/davinci-deqm/StructureDefinition/extension-populationReference",
          "valueString": "initial-population"
        }, {
          "url": "http://hl7.org/fhir/us/davinci-deqm/StructureDefinition/extension-populationReference",
          "valueString": "denominator"
        }, {
          "url": "http://hl7.org/fhir/us/davinci-deqm/StructureDefinition/extension-populationReference",
          "valueString": "numerator"
        } ],
        "reference": "Encounter/CMS68-patient-3-encounter-1"
      }, {
        "extension": [ {
          "url": "http://hl7.org/fhir/us/davinci-deqm/StructureDefinition/extension-populationReference",
          "valueString": "numerator"
        } ],
        "reference": "Procedure/CMS68-patient-3-procedure-1"
      } ]
    },
    "request": {
      "method": "PUT",
      "url": "MeasureReport/measurereport-CMS68-patient-3"
    }
  }, {
    "resource": {
      "resourceType": "Procedure",
      "id": "CMS68-patient-3-procedure-1",
      "meta": {
        "profile": [ "http://hl7.org/fhir/us/qicore/StructureDefinition/qicore-procedure" ]
      },
      "status": "completed",
      "code": {
        "coding": [ {
          "system": "http://snomed.info/sct",
          "version": "2021-03",
          "code": "428191000124101",
          "display": "Documentation of current medications (procedure)"
        } ]
      },
      "subject": {
        "reference": "Patient/CMS68-patient-3"
      },
      "performedDateTime": "2020-03-03T03:00:00-07:00"
    },
    "request": {
      "method": "PUT",
      "url": "Procedure/CMS68-patient-3-procedure-1"
    }
  }, {
    "resource": {
      "resourceType": "Encounter",
      "id": "CMS68-patient-3-encounter-1",
      "meta": {
        "profile": [ "http://hl7.org/fhir/us/qicore/StructureDefinition/qicore-encounter" ]
      },
      "status": "finished",
      "class": {
        "system": "http://terminology.hl7.org/CodeSystem/v3-ActCode",
        "code": "AMB",
        "display": "ambulatory"
      },
      "type": [ {
        "coding": [ {
          "system": "http://www.ama-assn.org/go/cpt",
          "version": "2021",
          "code": "92545",
          "display": "Oscillating tracking test, with recording"
        } ]
      } ],
      "subject": {
        "reference": "Patient/CMS68-patient-3"
      },
      "period": {
        "start": "2020-03-03T03:00:00-07:00",
        "end": "2020-03-03T04:00:00-07:00"
      }
    },
    "request": {
      "method": "PUT",
      "url": "Encounter/CMS68-patient-3-encounter-1"
    }
  }, {
    "resource": {
      "resourceType": "Patient",
      "id": "CMS68-patient-3",
      "meta": {
        "profile": [ "http://hl7.org/fhir/us/qicore/StructureDefinition/qicore-patient" ]
      },
      "extension": [ {
        "url": "http://hl7.org/fhir/us/core/StructureDefinition/us-core-race",
        "extension": [ {
          "url": "ombCategory",
          "valueCoding": {
            "system": "http://terminology.hl7.org/CodeSystem/PHRaceAndEthnicityCDC",
            "code": "2106-3",
            "display": "White"
          }
        }, {
          "url": "ombCategory",
          "valueCoding": {
            "system": "http://terminology.hl7.org/CodeSystem/PHRaceAndEthnicityCDC",
            "code": "1002-5",
            "display": "American Indian or Alaska Native"
          }
        }, {
          "url": "ombCategory",
          "valueCoding": {
            "system": "http://terminology.hl7.org/CodeSystem/PHRaceAndEthnicityCDC",
            "code": "2028-9",
            "display": "Asian"
          }
        }, {
          "url": "detailed",
          "valueCoding": {
            "system": "http://terminology.hl7.org/CodeSystem/PHRaceAndEthnicityCDC",
            "code": "1586-7",
            "display": "Shoshone"
          }
        }, {
          "url": "detailed",
          "valueCoding": {
            "system": "http://terminology.hl7.org/CodeSystem/PHRaceAndEthnicityCDC",
            "code": "2036-2",
            "display": "Filipino"
          }
        }, {
          "url": "text",
          "valueString": "Mixed"
        } ]
      }, {
        "url": "http://hl7.org/fhir/us/core/StructureDefinition/us-core-ethnicity",
        "extension": [ {
          "url": "ombCategory",
          "valueCoding": {
            "system": "http://terminology.hl7.org/CodeSystem/PHRaceAndEthnicityCDC",
            "code": "2135-2",
            "display": "Hispanic or Latino"
          }
        }, {
          "url": "detailed",
          "valueCoding": {
            "system": "http://terminology.hl7.org/CodeSystem/PHRaceAndEthnicityCDC",
            "code": "2184-0",
            "display": "Dominican"
          }
        }, {
          "url": "detailed",
          "valueCoding": {
            "system": "http://terminology.hl7.org/CodeSystem/PHRaceAndEthnicityCDC",
            "code": "2148-5",
            "display": "Mexican"
          }
        }, {
          "url": "text",
          "valueString": "Hispanic or Latino"
        } ]
      }, {
        "url": "http://hl7.org/fhir/us/core/StructureDefinition/us-core-birthsex",
        "valueCode": "F"
      } ],
      "identifier": [ {
        "use": "usual",
        "type": {
          "coding": [ {
            "system": "http://terminology.hl7.org/CodeSystem/v2-0203",
            "code": "MR"
          } ]
        },
        "system": "urn:oid:1.2.36.146.595.217.0.1",
        "value": "12345",
        "period": {
          "start": "2001-05-06"
        },
        "assigner": {
          "display": "Acme Healthcare"
        }
      } ],
      "active": true,
      "name": [ {
        "use": "official",
        "family": "Doe",
        "given": [ "Jan" ]
      } ],
      "gender": "female",
      "birthDate": "1990-03-03",
      "deceasedBoolean": false
    },
    "request": {
      "method": "PUT",
      "url": "Patient/CMS68-patient-3"
    }
  }, {
    "resource": {
      "resourceType": "Coverage",
      "id": "CMS68-patient-3-coverage-1",
      "meta": {
        "profile": [ "http://hl7.org/fhir/us/qicore/StructureDefinition/qicore-coverage" ]
      },
      "status": "active",
      "type": {
        "coding": [ {
          "system": "https://nahdo.org/sopt",
          "version": "9.2",
          "code": "3113",
          "display": "TRICARE Standard - Fee For Service"
        } ]
      },
      "policyHolder": {
        "reference": "Patient/CMS68-patient-3"
      },
      "beneficiary": {
        "reference": "Patient/CMS68-patient-3"
      },
      "period": {
        "start": "2020-01-01T00:00:00-07:00",
        "end": "2021-01-01T00:00:00-07:00"
      },
      "payor": [ {
        "reference": "Patient/CMS68-patient-3"
      } ]
    },
    "request": {
      "method": "PUT",
      "url": "Coverage/CMS68-patient-3-coverage-1"
    }
  } ]
}