{
  "resourceType": "Bundle",
  "id": "tests-CMS68-patient-2-bundle",
  "type": "transaction",
  "entry": [ {
    "resource": {
      "resourceType": "MeasureReport",
      "id": "measurereport-CMS68-patient-2",
      "contained": [ {
        "resourceType": "Observation",
        "id": "1842ed94-e447-4dbb-a72c-d27309639af4",
        "extension": [ {
          "url": "http://hl7.org/fhir/StructureDefinition/cqf-measureInfo",
          "extension": [ {
            "url": "measure",
            "valueCanonical": "http://content.alphora.com/fhir/dqm/Measure/CMS68"
          }, {
            "url": "populationId",
            "valueString": "sde-race"
          } ]
        } ],
        "status": "final",
        "code": {
          "text": "sde-race"
        },
        "valueCodeableConcept": {
          "coding": [ {
            "system": "http://terminology.hl7.org/CodeSystem/PHRaceAndEthnicityCDC",
            "code": "2106-3",
            "display": "White"
          } ]
        }
      }, {
        "resourceType": "Observation",
        "id": "fd5ab81a-f739-4fd5-b8df-63710a3ccbb0",
        "extension": [ {
          "url": "http://hl7.org/fhir/StructureDefinition/cqf-measureInfo",
          "extension": [ {
            "url": "measure",
            "valueCanonical": "http://content.alphora.com/fhir/dqm/Measure/CMS68"
          }, {
            "url": "populationId",
            "valueString": "sde-payer"
          } ]
        } ],
        "status": "final",
        "code": {
          "text": "sde-payer"
        },
        "valueCodeableConcept": {
          "coding": [ {
            "system": "https://nahdo.org/sopt",
            "code": "111",
            "display": "Medicare HMO"
          } ]
        }
      }, {
        "resourceType": "Observation",
        "id": "d5ac4d47-f58a-42cf-8c03-8126e461c5ea",
        "extension": [ {
          "url": "http://hl7.org/fhir/StructureDefinition/cqf-measureInfo",
          "extension": [ {
            "url": "measure",
            "valueCanonical": "http://content.alphora.com/fhir/dqm/Measure/CMS68"
          }, {
            "url": "populationId",
            "valueString": "sde-ethnicity"
          } ]
        } ],
        "status": "final",
        "code": {
          "text": "sde-ethnicity"
        },
        "valueCodeableConcept": {
          "coding": [ {
            "system": "http://terminology.hl7.org/CodeSystem/PHRaceAndEthnicityCDC",
            "code": "2135-2",
            "display": "Hispanic or Latino"
          } ]
        }
      }, {
        "resourceType": "Observation",
        "id": "3f6785c2-e1c9-4611-b504-217410a69bfd",
        "extension": [ {
          "url": "http://hl7.org/fhir/StructureDefinition/cqf-measureInfo",
          "extension": [ {
            "url": "measure",
            "valueCanonical": "http://content.alphora.com/fhir/dqm/Measure/CMS68"
          }, {
            "url": "populationId",
            "valueString": "sde-sex"
          } ]
        } ],
        "status": "final",
        "code": {
          "text": "sde-sex"
        },
        "valueCodeableConcept": {
          "coding": [ {
            "code": "F"
          } ]
        }
      } ],
      "status": "complete",
      "type": "individual",
      "measure": "http://content.alphora.com/fhir/dqm/Measure/CMS68",
      "subject": {
        "reference": "Patient/CMS68-patient-2"
      },
      "period": {
        "start": "2020-01-01T00:00:00-07:00",
        "end": "2020-12-31T00:00:00-07:00"
      },
      "group": [ {
        "id": "group-1",
        "population": [ {
          "code": {
            "coding": [ {
              "system": "http://terminology.hl7.org/CodeSystem/measure-population",
              "code": "initial-population",
              "display": "Initial Population"
            } ]
          },
          "count": 1
        }, {
          "code": {
            "coding": [ {
              "system": "http://terminology.hl7.org/CodeSystem/measure-population",
              "code": "numerator",
              "display": "Numerator"
            } ]
          },
          "count": 0
        }, {
          "code": {
            "coding": [ {
              "system": "http://terminology.hl7.org/CodeSystem/measure-population",
              "code": "denominator",
              "display": "Denominator"
            } ]
          },
          "count": 1
        }, {
          "code": {
            "coding": [ {
              "system": "http://terminology.hl7.org/CodeSystem/measure-population",
              "code": "denominator-exception",
              "display": "Denominator Exception"
            } ]
          },
          "count": 0
        } ],
        "measureScore": {
          "value": 0.0
        }
      } ],
      "evaluatedResource": [ {
        "reference": "#1842ed94-e447-4dbb-a72c-d27309639af4"
      }, {
        "reference": "#fd5ab81a-f739-4fd5-b8df-63710a3ccbb0"
      }, {
        "reference": "#d5ac4d47-f58a-42cf-8c03-8126e461c5ea"
      }, {
        "reference": "#3f6785c2-e1c9-4611-b504-217410a69bfd"
      }, {
        "extension": [ {
          "url": "http://hl7.org/fhir/us/davinci-deqm/StructureDefinition/extension-populationReference",
          "valueString": "initial-population"
        }, {
          "url": "http://hl7.org/fhir/us/davinci-deqm/StructureDefinition/extension-populationReference",
          "valueString": "denominator"
        } ],
        "reference": "Patient/CMS68-patient-2"
      }, {
        "extension": [ {
          "url": "http://hl7.org/fhir/us/davinci-deqm/StructureDefinition/extension-populationReference",
          "valueString": "initial-population"
        }, {
          "url": "http://hl7.org/fhir/us/davinci-deqm/StructureDefinition/extension-populationReference",
          "valueString": "denominator"
        } ],
        "reference": "Encounter/CMS68-patient-2-encounter-1"
      } ]
    },
    "request": {
      "method": "PUT",
      "url": "MeasureReport/measurereport-CMS68-patient-2"
    }
  }, {
    "resource": {
      "resourceType": "Encounter",
      "id": "CMS68-patient-2-encounter-1",
      "meta": {
        "profile": [ "http://hl7.org/fhir/us/qicore/StructureDefinition/qicore-encounter" ]
      },
      "status": "finished",
      "class": {
        "system": "http://terminology.hl7.org/CodeSystem/v3-ActCode",
        "code": "AMB",
        "display": "ambulatory"
      },
      "type": [ {
        "coding": [ {
          "system": "http://www.ama-assn.org/go/cpt",
          "version": "2021",
          "code": "90791",
          "display": "Psychiatric diagnostic evaluation"
        } ]
      } ],
      "subject": {
        "reference": "Patient/CMS68-patient-2"
      },
      "period": {
        "start": "2020-02-02T02:00:00-07:00",
        "end": "2020-02-02T03:00:00-07:00"
      }
    },
    "request": {
      "method": "PUT",
      "url": "Encounter/CMS68-patient-2-encounter-1"
    }
  }, {
    "resource": {
      "resourceType": "Patient",
      "id": "CMS68-patient-2",
      "meta": {
        "profile": [ "http://hl7.org/fhir/us/qicore/StructureDefinition/qicore-patient" ]
      },
      "extension": [ {
        "url": "http://hl7.org/fhir/us/core/StructureDefinition/us-core-race",
        "extension": [ {
          "url": "ombCategory",
          "valueCoding": {
            "system": "http://terminology.hl7.org/CodeSystem/PHRaceAndEthnicityCDC",
            "code": "2106-3",
            "display": "White"
          }
        }, {
          "url": "ombCategory",
          "valueCoding": {
            "system": "http://terminology.hl7.org/CodeSystem/PHRaceAndEthnicityCDC",
            "code": "1002-5",
            "display": "American Indian or Alaska Native"
          }
        }, {
          "url": "ombCategory",
          "valueCoding": {
            "system": "http://terminology.hl7.org/CodeSystem/PHRaceAndEthnicityCDC",
            "code": "2028-9",
            "display": "Asian"
          }
        }, {
          "url": "detailed",
          "valueCoding": {
            "system": "http://terminology.hl7.org/CodeSystem/PHRaceAndEthnicityCDC",
            "code": "1586-7",
            "display": "Shoshone"
          }
        }, {
          "url": "detailed",
          "valueCoding": {
            "system": "http://terminology.hl7.org/CodeSystem/PHRaceAndEthnicityCDC",
            "code": "2036-2",
            "display": "Filipino"
          }
        }, {
          "url": "text",
          "valueString": "Mixed"
        } ]
      }, {
        "url": "http://hl7.org/fhir/us/core/StructureDefinition/us-core-ethnicity",
        "extension": [ {
          "url": "ombCategory",
          "valueCoding": {
            "system": "http://terminology.hl7.org/CodeSystem/PHRaceAndEthnicityCDC",
            "code": "2135-2",
            "display": "Hispanic or Latino"
          }
        }, {
          "url": "detailed",
          "valueCoding": {
            "system": "http://terminology.hl7.org/CodeSystem/PHRaceAndEthnicityCDC",
            "code": "2184-0",
            "display": "Dominican"
          }
        }, {
          "url": "detailed",
          "valueCoding": {
            "system": "http://terminology.hl7.org/CodeSystem/PHRaceAndEthnicityCDC",
            "code": "2148-5",
            "display": "Mexican"
          }
        }, {
          "url": "text",
          "valueString": "Hispanic or Latino"
        } ]
      }, {
        "url": "http://hl7.org/fhir/us/core/StructureDefinition/us-core-birthsex",
        "valueCode": "F"
      } ],
      "identifier": [ {
        "use": "usual",
        "type": {
          "coding": [ {
            "system": "http://terminology.hl7.org/CodeSystem/v2-0203",
            "code": "MR"
          } ]
        },
        "system": "urn:oid:1.2.36.146.595.217.0.1",
        "value": "12345",
        "period": {
          "start": "2001-05-06"
        },
        "assigner": {
          "display": "Acme Healthcare"
        }
      } ],
      "active": true,
      "name": [ {
        "use": "official",
        "family": "Doe",
        "given": [ "Jane" ]
      } ],
      "gender": "female",
      "birthDate": "1995-02-02",
      "deceasedBoolean": false
    },
    "request": {
      "method": "PUT",
      "url": "Patient/CMS68-patient-2"
    }
  }, {
    "resource": {
      "resourceType": "Coverage",
      "id": "CMS68-patient-2-coverage-1",
      "meta": {
        "profile": [ "http://hl7.org/fhir/us/qicore/StructureDefinition/qicore-coverage" ]
      },
      "status": "active",
      "type": {
        "coding": [ {
          "system": "https://nahdo.org/sopt",
          "version": "9.2",
          "code": "111",
          "display": "Medicare HMO"
        } ]
      },
      "policyHolder": {
        "reference": "Patient/CMS68-patient-2"
      },
      "beneficiary": {
        "reference": "Patient/CMS68-patient-2"
      },
      "period": {
        "start": "2020-01-01T00:00:00-07:00",
        "end": "2021-01-01T00:00:00-07:00"
      },
      "payor": [ {
        "reference": "Patient/CMS68-patient-2"
      } ]
    },
    "request": {
      "method": "PUT",
      "url": "Coverage/CMS68-patient-2-coverage-1"
    }
  } ]
}