{
  "resourceType": "MeasureReport",
  "contained": [ {
    "resourceType": "Observation",
    "id": "72716bd6-4fb6-4bfb-aad1-b21baac00149",
    "extension": [ {
      "url": "http://hl7.org/fhir/StructureDefinition/cqf-measureInfo",
      "extension": [ {
        "url": "measure",
        "valueCanonical": "http://content.alphora.com/fhir/dqm/Measure/CMS68"
      }, {
        "url": "populationId",
        "valueString": "sde-race"
      } ]
    } ],
    "status": "final",
    "code": {
      "text": "sde-race"
    },
    "valueCodeableConcept": {
      "coding": [ {
        "system": "http://terminology.hl7.org/CodeSystem/PHRaceAndEthnicityCDC",
        "code": "2106-3",
        "display": "White"
      } ]
    }
  }, {
    "resourceType": "Observation",
    "id": "60e41aa4-be4f-4b6c-a2d2-d68f6b92981e",
    "extension": [ {
      "url": "http://hl7.org/fhir/StructureDefinition/cqf-measureInfo",
      "extension": [ {
        "url": "measure",
        "valueCanonical": "http://content.alphora.com/fhir/dqm/Measure/CMS68"
      }, {
        "url": "populationId",
        "valueString": "sde-payer"
      } ]
    } ],
    "status": "final",
    "code": {
      "text": "sde-payer"
    },
    "valueCodeableConcept": {
      "coding": [ {
        "system": "https://nahdo.org/sopt",
        "code": "3113",
        "display": "TRICARE Standard - Fee For Service"
      } ]
    }
  }, {
    "resourceType": "Observation",
    "id": "f289d7f3-953e-414c-a0c9-bcd411f6eebf",
    "extension": [ {
      "url": "http://hl7.org/fhir/StructureDefinition/cqf-measureInfo",
      "extension": [ {
        "url": "measure",
        "valueCanonical": "http://content.alphora.com/fhir/dqm/Measure/CMS68"
      }, {
        "url": "populationId",
        "valueString": "sde-ethnicity"
      } ]
    } ],
    "status": "final",
    "code": {
      "text": "sde-ethnicity"
    },
    "valueCodeableConcept": {
      "coding": [ {
        "system": "http://terminology.hl7.org/CodeSystem/PHRaceAndEthnicityCDC",
        "code": "2135-2",
        "display": "Hispanic or Latino"
      } ]
    }
  }, {
    "resourceType": "Observation",
    "id": "361e2b64-e663-4aa8-bf74-f61b00eca96f",
    "extension": [ {
      "url": "http://hl7.org/fhir/StructureDefinition/cqf-measureInfo",
      "extension": [ {
        "url": "measure",
        "valueCanonical": "http://content.alphora.com/fhir/dqm/Measure/CMS68"
      }, {
        "url": "populationId",
        "valueString": "sde-sex"
      } ]
    } ],
    "status": "final",
    "code": {
      "text": "sde-sex"
    },
    "valueCodeableConcept": {
      "coding": [ {
        "code": "F"
      } ]
    }
  } ],
  "status": "complete",
  "type": "individual",
  "measure": "http://content.alphora.com/fhir/dqm/Measure/CMS68",
  "subject": {
    "reference": "Patient/CMS68-patient-3"
  },
  "period": {
    "start": "2020-01-01T00:00:00-07:00",
    "end": "2020-12-31T00:00:00-07:00"
  },
  "group": [ {
    "id": "group-1",
    "population": [ {
      "code": {
        "coding": [ {
          "system": "http://terminology.hl7.org/CodeSystem/measure-population",
          "code": "initial-population",
          "display": "Initial Population"
        } ]
      },
      "count": 1
    }, {
      "code": {
        "coding": [ {
          "system": "http://terminology.hl7.org/CodeSystem/measure-population",
          "code": "numerator",
          "display": "Numerator"
        } ]
      },
      "count": 1
    }, {
      "code": {
        "coding": [ {
          "system": "http://terminology.hl7.org/CodeSystem/measure-population",
          "code": "denominator",
          "display": "Denominator"
        } ]
      },
      "count": 1
    }, {
      "code": {
        "coding": [ {
          "system": "http://terminology.hl7.org/CodeSystem/measure-population",
          "code": "denominator-exception",
          "display": "Denominator Exception"
        } ]
      },
      "count": 0
    } ],
    "measureScore": {
      "value": 1.0
    }
  } ],
  "evaluatedResource": [ {
    "reference": "#72716bd6-4fb6-4bfb-aad1-b21baac00149"
  }, {
    "reference": "#60e41aa4-be4f-4b6c-a2d2-d68f6b92981e"
  }, {
    "reference": "#f289d7f3-953e-414c-a0c9-bcd411f6eebf"
  }, {
    "reference": "#361e2b64-e663-4aa8-bf74-f61b00eca96f"
  }, {
    "extension": [ {
      "url": "http://hl7.org/fhir/us/davinci-deqm/StructureDefinition/extension-populationReference",
      "valueString": "initial-population"
    }, {
      "url": "http://hl7.org/fhir/us/davinci-deqm/StructureDefinition/extension-populationReference",
      "valueString": "denominator"
    } ],
    "reference": "Patient/CMS68-patient-3"
  }, {
    "extension": [ {
      "url": "http://hl7.org/fhir/us/davinci-deqm/StructureDefinition/extension-populationReference",
      "valueString": "initial-population"
    }, {
      "url": "http://hl7.org/fhir/us/davinci-deqm/StructureDefinition/extension-populationReference",
      "valueString": "denominator"
    }, {
      "url": "http://hl7.org/fhir/us/davinci-deqm/StructureDefinition/extension-populationReference",
      "valueString": "numerator"
    } ],
    "reference": "Encounter/CMS68-patient-3-encounter-1"
  }, {
    "extension": [ {
      "url": "http://hl7.org/fhir/us/davinci-deqm/StructureDefinition/extension-populationReference",
      "valueString": "numerator"
    } ],
    "reference": "Procedure/CMS68-patient-3-procedure-1"
  } ]
}