{
  "resourceType": "Bundle",
  "id": "tests-CMS68-patient-4-bundle",
  "type": "transaction",
  "entry": [ {
    "resource": {
      "resourceType": "Procedure",
      "id": "CMS68-patient-4-procedure-1",
      "meta": {
        "profile": [ "http://hl7.org/fhir/us/qicore/StructureDefinition/qicore-procedurenotdone" ]
      },
      "extension": [ {
        "url": "http://hl7.org/fhir/us/qicore/StructureDefinition/qicore-recorded",
        "valueDateTime": "2020-04-04T04:00:00-07:00"
      } ],
      "status": "not-done",
      "statusReason": {
        "coding": [ {
          "system": "http://snomed.info/sct",
          "version": "2021-03",
          "code": "407563006",
          "display": "Treatment not tolerated (situation)"
        } ]
      },
      "code": {
        "coding": [ {
          "system": "http://snomed.info/sct",
          "version": "2021-03",
          "code": "428191000124101",
          "display": "Documentation of current medications (procedure)"
        } ]
      },
      "subject": {
        "reference": "Patient/CMS68-patient-4"
      },
      "encounter": {
        "reference": "Encounter/CMS68-patient-4-encounter-1"
      }
    },
    "request": {
      "method": "PUT",
      "url": "Procedure/CMS68-patient-4-procedure-1"
    }
  }, {
    "resource": {
      "resourceType": "MeasureReport",
      "id": "measurereport-CMS68-patient-4",
      "contained": [ {
        "resourceType": "Observation",
        "id": "d5b42fe1-24f6-452b-9052-2708cc36bd38",
        "extension": [ {
          "url": "http://hl7.org/fhir/StructureDefinition/cqf-measureInfo",
          "extension": [ {
            "url": "measure",
            "valueCanonical": "http://content.alphora.com/fhir/dqm/Measure/CMS68"
          }, {
            "url": "populationId",
            "valueString": "sde-race"
          } ]
        } ],
        "status": "final",
        "code": {
          "text": "sde-race"
        },
        "valueCodeableConcept": {
          "coding": [ {
            "system": "http://terminology.hl7.org/CodeSystem/PHRaceAndEthnicityCDC",
            "code": "2106-3",
            "display": "White"
          } ]
        }
      }, {
        "resourceType": "Observation",
        "id": "1dcfd831-90b6-4f03-934e-2dcdfc45d99e",
        "extension": [ {
          "url": "http://hl7.org/fhir/StructureDefinition/cqf-measureInfo",
          "extension": [ {
            "url": "measure",
            "valueCanonical": "http://content.alphora.com/fhir/dqm/Measure/CMS68"
          }, {
            "url": "populationId",
            "valueString": "sde-payer"
          } ]
        } ],
        "status": "final",
        "code": {
          "text": "sde-payer"
        },
        "valueCodeableConcept": {
          "coding": [ {
            "system": "https://nahdo.org/sopt",
            "code": "11",
            "display": "Medicare Managed Care (Includes Medicare Advantage Plans)"
          } ]
        }
      }, {
        "resourceType": "Observation",
        "id": "32615603-ffba-4ef4-af4a-ef1207eab6fd",
        "extension": [ {
          "url": "http://hl7.org/fhir/StructureDefinition/cqf-measureInfo",
          "extension": [ {
            "url": "measure",
            "valueCanonical": "http://content.alphora.com/fhir/dqm/Measure/CMS68"
          }, {
            "url": "populationId",
            "valueString": "sde-ethnicity"
          } ]
        } ],
        "status": "final",
        "code": {
          "text": "sde-ethnicity"
        },
        "valueCodeableConcept": {
          "coding": [ {
            "system": "http://terminology.hl7.org/CodeSystem/PHRaceAndEthnicityCDC",
            "code": "2135-2",
            "display": "Hispanic or Latino"
          } ]
        }
      }, {
        "resourceType": "Observation",
        "id": "b4be890b-2fc2-4b1c-a082-92642f410167",
        "extension": [ {
          "url": "http://hl7.org/fhir/StructureDefinition/cqf-measureInfo",
          "extension": [ {
            "url": "measure",
            "valueCanonical": "http://content.alphora.com/fhir/dqm/Measure/CMS68"
          }, {
            "url": "populationId",
            "valueString": "sde-sex"
          } ]
        } ],
        "status": "final",
        "code": {
          "text": "sde-sex"
        },
        "valueCodeableConcept": {
          "coding": [ {
            "code": "M"
          } ]
        }
      } ],
      "status": "complete",
      "type": "individual",
      "measure": "http://content.alphora.com/fhir/dqm/Measure/CMS68",
      "subject": {
        "reference": "Patient/CMS68-patient-4"
      },
      "period": {
        "start": "2020-01-01T00:00:00-07:00",
        "end": "2020-12-31T00:00:00-07:00"
      },
      "group": [ {
        "id": "group-1",
        "population": [ {
          "code": {
            "coding": [ {
              "system": "http://terminology.hl7.org/CodeSystem/measure-population",
              "code": "initial-population",
              "display": "Initial Population"
            } ]
          },
          "count": 1
        }, {
          "code": {
            "coding": [ {
              "system": "http://terminology.hl7.org/CodeSystem/measure-population",
              "code": "numerator",
              "display": "Numerator"
            } ]
          },
          "count": 0
        }, {
          "code": {
            "coding": [ {
              "system": "http://terminology.hl7.org/CodeSystem/measure-population",
              "code": "denominator",
              "display": "Denominator"
            } ]
          },
          "count": 0
        }, {
          "code": {
            "coding": [ {
              "system": "http://terminology.hl7.org/CodeSystem/measure-population",
              "code": "denominator-exception",
              "display": "Denominator Exception"
            } ]
          },
          "count": 1
        } ]
      } ],
      "evaluatedResource": [ {
        "reference": "#d5b42fe1-24f6-452b-9052-2708cc36bd38"
      }, {
        "reference": "#1dcfd831-90b6-4f03-934e-2dcdfc45d99e"
      }, {
        "reference": "#32615603-ffba-4ef4-af4a-ef1207eab6fd"
      }, {
        "reference": "#b4be890b-2fc2-4b1c-a082-92642f410167"
      }, {
        "extension": [ {
          "url": "http://hl7.org/fhir/us/davinci-deqm/StructureDefinition/extension-populationReference",
          "valueString": "denominator-exception"
        }, {
          "url": "http://hl7.org/fhir/us/davinci-deqm/StructureDefinition/extension-populationReference",
          "valueString": "numerator"
        } ],
        "reference": "Procedure/CMS68-patient-4-procedure-1"
      }, {
        "extension": [ {
          "url": "http://hl7.org/fhir/us/davinci-deqm/StructureDefinition/extension-populationReference",
          "valueString": "denominator-exception"
        }, {
          "url": "http://hl7.org/fhir/us/davinci-deqm/StructureDefinition/extension-populationReference",
          "valueString": "initial-population"
        }, {
          "url": "http://hl7.org/fhir/us/davinci-deqm/StructureDefinition/extension-populationReference",
          "valueString": "denominator"
        } ],
        "reference": "Encounter/CMS68-patient-4-encounter-1"
      }, {
        "extension": [ {
          "url": "http://hl7.org/fhir/us/davinci-deqm/StructureDefinition/extension-populationReference",
          "valueString": "initial-population"
        }, {
          "url": "http://hl7.org/fhir/us/davinci-deqm/StructureDefinition/extension-populationReference",
          "valueString": "denominator"
        } ],
        "reference": "Patient/CMS68-patient-4"
      } ]
    },
    "request": {
      "method": "PUT",
      "url": "MeasureReport/measurereport-CMS68-patient-4"
    }
  }, {
    "resource": {
      "resourceType": "Encounter",
      "id": "CMS68-patient-4-encounter-1",
      "meta": {
        "profile": [ "http://hl7.org/fhir/us/qicore/StructureDefinition/qicore-encounter" ]
      },
      "status": "finished",
      "class": {
        "system": "http://terminology.hl7.org/CodeSystem/v3-ActCode",
        "code": "AMB",
        "display": "ambulatory"
      },
      "type": [ {
        "coding": [ {
          "system": "http://snomed.info/sct",
          "version": "2020-09",
          "code": "108220007",
          "display": "Evaluation AND/OR management - new patient (procedure)"
        } ]
      } ],
      "subject": {
        "reference": "Patient/CMS68-patient-4"
      },
      "period": {
        "start": "2020-04-04T04:00:00-07:00",
        "end": "2020-04-04T05:00:00-07:00"
      }
    },
    "request": {
      "method": "PUT",
      "url": "Encounter/CMS68-patient-4-encounter-1"
    }
  }, {
    "resource": {
      "resourceType": "Patient",
      "id": "CMS68-patient-4",
      "meta": {
        "profile": [ "http://hl7.org/fhir/us/qicore/StructureDefinition/qicore-patient" ]
      },
      "extension": [ {
        "url": "http://hl7.org/fhir/us/core/StructureDefinition/us-core-race",
        "extension": [ {
          "url": "ombCategory",
          "valueCoding": {
            "system": "http://terminology.hl7.org/CodeSystem/PHRaceAndEthnicityCDC",
            "code": "2106-3",
            "display": "White"
          }
        }, {
          "url": "ombCategory",
          "valueCoding": {
            "system": "http://terminology.hl7.org/CodeSystem/PHRaceAndEthnicityCDC",
            "code": "1002-5",
            "display": "American Indian or Alaska Native"
          }
        }, {
          "url": "ombCategory",
          "valueCoding": {
            "system": "http://terminology.hl7.org/CodeSystem/PHRaceAndEthnicityCDC",
            "code": "2028-9",
            "display": "Asian"
          }
        }, {
          "url": "detailed",
          "valueCoding": {
            "system": "http://terminology.hl7.org/CodeSystem/PHRaceAndEthnicityCDC",
            "code": "1586-7",
            "display": "Shoshone"
          }
        }, {
          "url": "detailed",
          "valueCoding": {
            "system": "http://terminology.hl7.org/CodeSystem/PHRaceAndEthnicityCDC",
            "code": "2036-2",
            "display": "Filipino"
          }
        }, {
          "url": "text",
          "valueString": "Mixed"
        } ]
      }, {
        "url": "http://hl7.org/fhir/us/core/StructureDefinition/us-core-ethnicity",
        "extension": [ {
          "url": "ombCategory",
          "valueCoding": {
            "system": "http://terminology.hl7.org/CodeSystem/PHRaceAndEthnicityCDC",
            "code": "2135-2",
            "display": "Hispanic or Latino"
          }
        }, {
          "url": "detailed",
          "valueCoding": {
            "system": "http://terminology.hl7.org/CodeSystem/PHRaceAndEthnicityCDC",
            "code": "2184-0",
            "display": "Dominican"
          }
        }, {
          "url": "detailed",
          "valueCoding": {
            "system": "http://terminology.hl7.org/CodeSystem/PHRaceAndEthnicityCDC",
            "code": "2148-5",
            "display": "Mexican"
          }
        }, {
          "url": "text",
          "valueString": "Hispanic or Latino"
        } ]
      }, {
        "url": "http://hl7.org/fhir/us/core/StructureDefinition/us-core-birthsex",
        "valueCode": "M"
      } ],
      "identifier": [ {
        "use": "usual",
        "type": {
          "coding": [ {
            "system": "http://terminology.hl7.org/CodeSystem/v2-0203",
            "code": "MR"
          } ]
        },
        "system": "urn:oid:1.2.36.146.595.217.0.1",
        "value": "12345",
        "period": {
          "start": "2001-05-06"
        },
        "assigner": {
          "display": "Acme Healthcare"
        }
      } ],
      "active": true,
      "name": [ {
        "use": "official",
        "family": "Doe",
        "given": [ "Jim" ]
      } ],
      "gender": "male",
      "birthDate": "1985-04-04",
      "deceasedBoolean": false
    },
    "request": {
      "method": "PUT",
      "url": "Patient/CMS68-patient-4"
    }
  }, {
    "resource": {
      "resourceType": "Coverage",
      "id": "CMS68-patient-4-coverage-1",
      "meta": {
        "profile": [ "http://hl7.org/fhir/us/qicore/StructureDefinition/qicore-coverage" ]
      },
      "status": "active",
      "type": {
        "coding": [ {
          "system": "https://nahdo.org/sopt",
          "version": "9.2",
          "code": "11",
          "display": "Medicare Managed Care (Includes Medicare Advantage Plans)"
        } ]
      },
      "policyHolder": {
        "reference": "Patient/CMS68-patient-4"
      },
      "beneficiary": {
        "reference": "Patient/CMS68-patient-4"
      },
      "period": {
        "start": "2020-01-01T00:00:00-07:00",
        "end": "2021-01-01T00:00:00-07:00"
      },
      "payor": [ {
        "reference": "Patient/CMS68-patient-4"
      } ]
    },
    "request": {
      "method": "PUT",
      "url": "Coverage/CMS68-patient-4-coverage-1"
    }
  } ]
}