{
  "resourceType": "Bundle",
  "id": "tests-CMS68-patient-1-bundle",
  "type": "transaction",
  "entry": [ {
    "resource": {
      "resourceType": "Procedure",
      "id": "CMS68-patient-1-procedure-1",
      "meta": {
        "profile": [ "http://hl7.org/fhir/us/qicore/StructureDefinition/qicore-procedure" ]
      },
      "status": "completed",
      "code": {
        "coding": [ {
          "system": "http://snomed.info/sct",
          "version": "2020-09",
          "code": "359960003",
          "display": "Ophthalmologic examination and evaluation under general anesthesia, limited (procedure)"
        } ]
      },
      "subject": {
        "reference": "Patient/CMS68-patient-1"
      },
      "performedDateTime": "2020-01-07T10:00:00-07:00"
    },
    "request": {
      "method": "PUT",
      "url": "Procedure/CMS68-patient-1-procedure-1"
    }
  }, {
    "resource": {
      "resourceType": "Encounter",
      "id": "CMS68-patient-1-encounter-1",
      "meta": {
        "profile": [ "http://hl7.org/fhir/us/qicore/StructureDefinition/qicore-encounter" ]
      },
      "status": "finished",
      "class": {
        "system": "http://terminology.hl7.org/CodeSystem/v3-ActCode",
        "code": "AMB",
        "display": "ambulatory"
      },
      "type": [ {
        "coding": [ {
          "system": "http://www.ama-assn.org/go/cpt",
          "version": "2.0.0",
          "code": "99203",
          "display": "Office or other outpatient visit for the evaluation and management of a new patient, which requires a medically appropriate history and/or examination and low level of medical decision making. When using time for code selection, 30-44 minutes of total time is spent on the date of the encounter"
        } ]
      } ],
      "subject": {
        "reference": "Patient/CMS68-patient-1"
      },
      "period": {
        "start": "2020-01-01T01:00:00-07:00",
        "end": "2020-01-01T02:00:00-07:00"
      }
    },
    "request": {
      "method": "PUT",
      "url": "Encounter/CMS68-patient-1-encounter-1"
    }
  }, {
    "resource": {
      "resourceType": "MeasureReport",
      "id": "measurereport-CMS68-patient-1",
      "contained": [ {
        "resourceType": "Observation",
        "id": "0a675ec9-9361-40ee-a0d2-4c57bfb44b46",
        "extension": [ {
          "url": "http://hl7.org/fhir/StructureDefinition/cqf-measureInfo",
          "extension": [ {
            "url": "measure",
            "valueCanonical": "http://content.alphora.com/fhir/dqm/Measure/CMS68"
          }, {
            "url": "populationId",
            "valueString": "sde-race"
          } ]
        } ],
        "status": "final",
        "code": {
          "text": "sde-race"
        },
        "valueCodeableConcept": {
          "coding": [ {
            "system": "http://terminology.hl7.org/CodeSystem/PHRaceAndEthnicityCDC",
            "code": "2106-3",
            "display": "White"
          } ]
        }
      }, {
        "resourceType": "Observation",
        "id": "8d920ab8-d9a7-4742-b25f-6b96bd3d9a86",
        "extension": [ {
          "url": "http://hl7.org/fhir/StructureDefinition/cqf-measureInfo",
          "extension": [ {
            "url": "measure",
            "valueCanonical": "http://content.alphora.com/fhir/dqm/Measure/CMS68"
          }, {
            "url": "populationId",
            "valueString": "sde-payer"
          } ]
        } ],
        "status": "final",
        "code": {
          "text": "sde-payer"
        },
        "valueCodeableConcept": {
          "coding": [ {
            "system": "https://nahdo.org/sopt",
            "code": "31",
            "display": "Department of Defense"
          } ]
        }
      }, {
        "resourceType": "Observation",
        "id": "bdc4cfea-d407-4232-965f-a1f6edac7de6",
        "extension": [ {
          "url": "http://hl7.org/fhir/StructureDefinition/cqf-measureInfo",
          "extension": [ {
            "url": "measure",
            "valueCanonical": "http://content.alphora.com/fhir/dqm/Measure/CMS68"
          }, {
            "url": "populationId",
            "valueString": "sde-ethnicity"
          } ]
        } ],
        "status": "final",
        "code": {
          "text": "sde-ethnicity"
        },
        "valueCodeableConcept": {
          "coding": [ {
            "system": "http://terminology.hl7.org/CodeSystem/PHRaceAndEthnicityCDC",
            "code": "2135-2",
            "display": "Hispanic or Latino"
          } ]
        }
      }, {
        "resourceType": "Observation",
        "id": "82ce8f2a-dbb3-4d55-91f9-36cc467a2a5c",
        "extension": [ {
          "url": "http://hl7.org/fhir/StructureDefinition/cqf-measureInfo",
          "extension": [ {
            "url": "measure",
            "valueCanonical": "http://content.alphora.com/fhir/dqm/Measure/CMS68"
          }, {
            "url": "populationId",
            "valueString": "sde-sex"
          } ]
        } ],
        "status": "final",
        "code": {
          "text": "sde-sex"
        },
        "valueCodeableConcept": {
          "coding": [ {
            "code": "M"
          } ]
        }
      } ],
      "status": "complete",
      "type": "individual",
      "measure": "http://content.alphora.com/fhir/dqm/Measure/CMS68",
      "subject": {
        "reference": "Patient/CMS68-patient-1"
      },
      "period": {
        "start": "2020-01-01T00:00:00-07:00",
        "end": "2020-12-31T00:00:00-07:00"
      },
      "group": [ {
        "id": "group-1",
        "population": [ {
          "code": {
            "coding": [ {
              "system": "http://terminology.hl7.org/CodeSystem/measure-population",
              "code": "initial-population",
              "display": "Initial Population"
            } ]
          },
          "count": 0
        }, {
          "code": {
            "coding": [ {
              "system": "http://terminology.hl7.org/CodeSystem/measure-population",
              "code": "numerator",
              "display": "Numerator"
            } ]
          },
          "count": 0
        }, {
          "code": {
            "coding": [ {
              "system": "http://terminology.hl7.org/CodeSystem/measure-population",
              "code": "denominator",
              "display": "Denominator"
            } ]
          },
          "count": 0
        }, {
          "code": {
            "coding": [ {
              "system": "http://terminology.hl7.org/CodeSystem/measure-population",
              "code": "denominator-exception",
              "display": "Denominator Exception"
            } ]
          },
          "count": 0
        } ]
      } ],
      "evaluatedResource": [ {
        "reference": "#0a675ec9-9361-40ee-a0d2-4c57bfb44b46"
      }, {
        "reference": "#8d920ab8-d9a7-4742-b25f-6b96bd3d9a86"
      }, {
        "reference": "#bdc4cfea-d407-4232-965f-a1f6edac7de6"
      }, {
        "reference": "#82ce8f2a-dbb3-4d55-91f9-36cc467a2a5c"
      }, {
        "extension": [ {
          "url": "http://hl7.org/fhir/us/davinci-deqm/StructureDefinition/extension-populationReference",
          "valueString": "initial-population"
        } ],
        "reference": "Patient/CMS68-patient-1"
      }, {
        "extension": [ {
          "url": "http://hl7.org/fhir/us/davinci-deqm/StructureDefinition/extension-populationReference",
          "valueString": "initial-population"
        } ],
        "reference": "Encounter/CMS68-patient-1-encounter-1"
      } ]
    },
    "request": {
      "method": "PUT",
      "url": "MeasureReport/measurereport-CMS68-patient-1"
    }
  }, {
    "resource": {
      "resourceType": "Patient",
      "id": "CMS68-patient-1",
      "meta": {
        "profile": [ "http://hl7.org/fhir/us/qicore/StructureDefinition/qicore-patient" ]
      },
      "extension": [ {
        "url": "http://hl7.org/fhir/us/core/StructureDefinition/us-core-race",
        "extension": [ {
          "url": "ombCategory",
          "valueCoding": {
            "system": "http://terminology.hl7.org/CodeSystem/PHRaceAndEthnicityCDC",
            "code": "2106-3",
            "display": "White"
          }
        }, {
          "url": "ombCategory",
          "valueCoding": {
            "system": "http://terminology.hl7.org/CodeSystem/PHRaceAndEthnicityCDC",
            "code": "1002-5",
            "display": "American Indian or Alaska Native"
          }
        }, {
          "url": "ombCategory",
          "valueCoding": {
            "system": "http://terminology.hl7.org/CodeSystem/PHRaceAndEthnicityCDC",
            "code": "2028-9",
            "display": "Asian"
          }
        }, {
          "url": "detailed",
          "valueCoding": {
            "system": "http://terminology.hl7.org/CodeSystem/PHRaceAndEthnicityCDC",
            "code": "1586-7",
            "display": "Shoshone"
          }
        }, {
          "url": "detailed",
          "valueCoding": {
            "system": "http://terminology.hl7.org/CodeSystem/PHRaceAndEthnicityCDC",
            "code": "2036-2",
            "display": "Filipino"
          }
        }, {
          "url": "text",
          "valueString": "Mixed"
        } ]
      }, {
        "url": "http://hl7.org/fhir/us/core/StructureDefinition/us-core-ethnicity",
        "extension": [ {
          "url": "ombCategory",
          "valueCoding": {
            "system": "http://terminology.hl7.org/CodeSystem/PHRaceAndEthnicityCDC",
            "code": "2135-2",
            "display": "Hispanic or Latino"
          }
        }, {
          "url": "detailed",
          "valueCoding": {
            "system": "http://terminology.hl7.org/CodeSystem/PHRaceAndEthnicityCDC",
            "code": "2184-0",
            "display": "Dominican"
          }
        }, {
          "url": "detailed",
          "valueCoding": {
            "system": "http://terminology.hl7.org/CodeSystem/PHRaceAndEthnicityCDC",
            "code": "2148-5",
            "display": "Mexican"
          }
        }, {
          "url": "text",
          "valueString": "Hispanic or Latino"
        } ]
      }, {
        "url": "http://hl7.org/fhir/us/core/StructureDefinition/us-core-birthsex",
        "valueCode": "M"
      } ],
      "identifier": [ {
        "use": "usual",
        "type": {
          "coding": [ {
            "system": "http://terminology.hl7.org/CodeSystem/v2-0203",
            "code": "MR"
          } ]
        },
        "system": "urn:oid:1.2.36.146.595.217.0.1",
        "value": "12345",
        "period": {
          "start": "2001-05-06"
        },
        "assigner": {
          "display": "Acme Healthcare"
        }
      } ],
      "active": true,
      "name": [ {
        "use": "official",
        "family": "Doe",
        "given": [ "John" ]
      } ],
      "gender": "male",
      "birthDate": "2005-01-01",
      "deceasedBoolean": false
    },
    "request": {
      "method": "PUT",
      "url": "Patient/CMS68-patient-1"
    }
  }, {
    "resource": {
      "resourceType": "Coverage",
      "id": "CMS68-patient-1-coverage-1",
      "meta": {
        "profile": [ "http://hl7.org/fhir/us/qicore/StructureDefinition/qicore-coverage" ]
      },
      "status": "active",
      "type": {
        "coding": [ {
          "system": "https://nahdo.org/sopt",
          "version": "9.2",
          "code": "31",
          "display": "Department of Defense"
        } ]
      },
      "policyHolder": {
        "reference": "Patient/CMS68-patient-1"
      },
      "beneficiary": {
        "reference": "Patient/CMS68-patient-1"
      },
      "period": {
        "start": "2020-01-01T00:00:00-07:00",
        "end": "2021-01-01T00:00:00-07:00"
      },
      "payor": [ {
        "reference": "Patient/CMS68-patient-1"
      } ]
    },
    "request": {
      "method": "PUT",
      "url": "Coverage/CMS68-patient-1-coverage-1"
    }
  } ]
}