{
  "resourceType": "MeasureReport",
  "contained": [ {
    "resourceType": "Observation",
    "id": "1842ed94-e447-4dbb-a72c-d27309639af4",
    "extension": [ {
      "url": "http://hl7.org/fhir/StructureDefinition/cqf-measureInfo",
      "extension": [ {
        "url": "measure",
        "valueCanonical": "http://content.alphora.com/fhir/dqm/Measure/CMS68"
      }, {
        "url": "populationId",
        "valueString": "sde-race"
      } ]
    } ],
    "status": "final",
    "code": {
      "text": "sde-race"
    },
    "valueCodeableConcept": {
      "coding": [ {
        "system": "http://terminology.hl7.org/CodeSystem/PHRaceAndEthnicityCDC",
        "code": "2106-3",
        "display": "White"
      } ]
    }
  }, {
    "resourceType": "Observation",
    "id": "fd5ab81a-f739-4fd5-b8df-63710a3ccbb0",
    "extension": [ {
      "url": "http://hl7.org/fhir/StructureDefinition/cqf-measureInfo",
      "extension": [ {
        "url": "measure",
        "valueCanonical": "http://content.alphora.com/fhir/dqm/Measure/CMS68"
      }, {
        "url": "populationId",
        "valueString": "sde-payer"
      } ]
    } ],
    "status": "final",
    "code": {
      "text": "sde-payer"
    },
    "valueCodeableConcept": {
      "coding": [ {
        "system": "https://nahdo.org/sopt",
        "code": "111",
        "display": "Medicare HMO"
      } ]
    }
  }, {
    "resourceType": "Observation",
    "id": "d5ac4d47-f58a-42cf-8c03-8126e461c5ea",
    "extension": [ {
      "url": "http://hl7.org/fhir/StructureDefinition/cqf-measureInfo",
      "extension": [ {
        "url": "measure",
        "valueCanonical": "http://content.alphora.com/fhir/dqm/Measure/CMS68"
      }, {
        "url": "populationId",
        "valueString": "sde-ethnicity"
      } ]
    } ],
    "status": "final",
    "code": {
      "text": "sde-ethnicity"
    },
    "valueCodeableConcept": {
      "coding": [ {
        "system": "http://terminology.hl7.org/CodeSystem/PHRaceAndEthnicityCDC",
        "code": "2135-2",
        "display": "Hispanic or Latino"
      } ]
    }
  }, {
    "resourceType": "Observation",
    "id": "3f6785c2-e1c9-4611-b504-217410a69bfd",
    "extension": [ {
      "url": "http://hl7.org/fhir/StructureDefinition/cqf-measureInfo",
      "extension": [ {
        "url": "measure",
        "valueCanonical": "http://content.alphora.com/fhir/dqm/Measure/CMS68"
      }, {
        "url": "populationId",
        "valueString": "sde-sex"
      } ]
    } ],
    "status": "final",
    "code": {
      "text": "sde-sex"
    },
    "valueCodeableConcept": {
      "coding": [ {
        "code": "F"
      } ]
    }
  } ],
  "status": "complete",
  "type": "individual",
  "measure": "http://content.alphora.com/fhir/dqm/Measure/CMS68",
  "subject": {
    "reference": "Patient/CMS68-patient-2"
  },
  "period": {
    "start": "2020-01-01T00:00:00-07:00",
    "end": "2020-12-31T00:00:00-07:00"
  },
  "group": [ {
    "id": "group-1",
    "population": [ {
      "code": {
        "coding": [ {
          "system": "http://terminology.hl7.org/CodeSystem/measure-population",
          "code": "initial-population",
          "display": "Initial Population"
        } ]
      },
      "count": 1
    }, {
      "code": {
        "coding": [ {
          "system": "http://terminology.hl7.org/CodeSystem/measure-population",
          "code": "numerator",
          "display": "Numerator"
        } ]
      },
      "count": 0
    }, {
      "code": {
        "coding": [ {
          "system": "http://terminology.hl7.org/CodeSystem/measure-population",
          "code": "denominator",
          "display": "Denominator"
        } ]
      },
      "count": 1
    }, {
      "code": {
        "coding": [ {
          "system": "http://terminology.hl7.org/CodeSystem/measure-population",
          "code": "denominator-exception",
          "display": "Denominator Exception"
        } ]
      },
      "count": 0
    } ],
    "measureScore": {
      "value": 0.0
    }
  } ],
  "evaluatedResource": [ {
    "reference": "#1842ed94-e447-4dbb-a72c-d27309639af4"
  }, {
    "reference": "#fd5ab81a-f739-4fd5-b8df-63710a3ccbb0"
  }, {
    "reference": "#d5ac4d47-f58a-42cf-8c03-8126e461c5ea"
  }, {
    "reference": "#3f6785c2-e1c9-4611-b504-217410a69bfd"
  }, {
    "extension": [ {
      "url": "http://hl7.org/fhir/us/davinci-deqm/StructureDefinition/extension-populationReference",
      "valueString": "initial-population"
    }, {
      "url": "http://hl7.org/fhir/us/davinci-deqm/StructureDefinition/extension-populationReference",
      "valueString": "denominator"
    } ],
    "reference": "Patient/CMS68-patient-2"
  }, {
    "extension": [ {
      "url": "http://hl7.org/fhir/us/davinci-deqm/StructureDefinition/extension-populationReference",
      "valueString": "initial-population"
    }, {
      "url": "http://hl7.org/fhir/us/davinci-deqm/StructureDefinition/extension-populationReference",
      "valueString": "denominator"
    } ],
    "reference": "Encounter/CMS68-patient-2-encounter-1"
  } ]
}